Folder: origin_/Spectroscopy/XRD

Note: README.md
# origin_
Files that come with origin

File: sbn.dat
10	1
10.22	2
10.44	0
10.66	1
10.88	0
11.1	0
11.32	1
11.54	0
11.76	0
11.98	0
12.2	1
12.42	0
12.64	1
12.86	4
13.08	1
13.3	5
13.52	7
13.74	20
13.96	131
14.18	3138
14.4	100
14.62	24
14.84	8
15.06	1
15.28	4
15.5	1
15.72	2
15.94	0
16.16	2
16.38	0
16.6	0
16.82	0
17.04	1
17.26	2
17.48	1
17.7	0
17.92	0
18.14	0
18.36	1
18.58	1
18.8	1
19.02	0
19.24	1
19.46	0
19.68	0
19.9	1
20.12	1
20.34	0
20.56	3
20.78	1
21	3
21.22	117
21.44	14
21.66	7
21.88	9
22.1	3
22.32	4
22.54	3
22.76	2
22.98	3
23.2	1
23.42	1
23.64	0
23.86	0
24.08	0
24.3	5
24.52	1
24.74	1
24.96	0
25.18	0
25.4	0
25.62	0
25.84	2
26.06	0
26.28	1
26.5	0
26.72	1
26.94	0
27.16	4
27.38	2
27.6	0
27.82	14
28.04	28
28.26	169
28.48	565
28.7	284
28.92	62
29.14	17
29.36	15
29.58	12
29.8	8
30.02	12
30.24	3
30.46	4
30.68	4
30.9	3
31.12	9
31.34	6
31.56	6
31.78	8
32	6
32.22	7
32.44	12
32.66	13
32.88	24
33.1	26
33.32	15
33.54	10
33.76	17
33.98	25
34.2	25
34.42	27
34.64	40
34.86	47
35.08	81
35.3	166
35.52	525
35.74	5566
35.96	3144
36.18	529
36.4	211
36.62	96
36.84	40
37.06	21
37.28	13
37.5	3
37.72	4
37.94	3
38.16	4
38.38	0
38.6	3
38.82	1
39.04	2
39.26	0
39.48	2
39.7	0
39.92	2
40.14	1
40.36	0
40.58	1
40.8	0
41.02	2
41.24	3
41.46	3
41.68	1
41.9	3
42.12	21
42.34	88
42.56	217
42.78	1003
43	13723
43.22	418
43.44	136
43.66	57
43.88	22
44.1	12
44.32	7
44.54	5
44.76	3
44.98	5
45.2	2
45.42	3
45.64	0
45.86	0
46.08	0
46.3	1
46.52	3
46.74	1
46.96	1
47.18	0
47.4	1
47.62	1
47.84	1
48.06	0
48.28	0
48.5	0
48.72	4
48.94	1
49.16	3
49.38	6
49.6	3
49.82	6
50.04	4
50.26	3
50.48	22
50.7	92
50.92	320
51.14	255
51.36	70
51.58	23
51.8	11
52.02	8
52.24	2
52.46	2
52.68	1
52.9	2
53.12	1
53.34	0
53.56	1
53.78	1
54	0
54.22	1
54.44	1
54.66	0
54.88	1
55.1	0
55.32	1
55.54	0
55.76	0
55.98	0
56.2	0
56.42	0
56.64	0
56.86	1
57.08	1
57.3	0
57.52	0
57.74	0
57.96	2
58.18	0
58.4	1
58.62	1
58.84	8
59.06	8
59.28	2
59.5	4
59.72	0
59.94	0
60.16	0
60.38	2
60.6	1
60.82	0
61.04	0
61.26	0
61.48	0
61.7	2
61.92	0
62.14	0
62.36	1
62.58	0
62.8	0
63.02	2
63.24	2
63.46	0
63.68	1
63.9	0
64.12	1
64.34	1
64.56	0
64.78	0
65	1
65.22	3
65.44	0
65.66	1
65.88	1
66.1	3
66.32	5
66.54	5
66.76	16
66.98	52
67.2	70
67.42	66
67.64	24
67.86	16
68.08	7
68.3	8
68.52	7
68.74	1
68.96	7
69.18	2
69.4	1
69.62	2
69.84	10
70	3